File: XRD/BrukerRAW/.ipynb_checkpoints/final-checkpoint.txt
# exported by xylib from a bruker_raw file
# AMPLIFIER_GAIN: 120
# DISCRIMINATOR_1_LOWER_LEVEL: 0.3
# GENERATOR_CURRENT: 30
# GENERATOR_VOLTAGE: 40
# HIGH_VOLTAGE: 727
# ROTATION_SPEED [rpm]: 0
# START_2THETA: 60
# START_THETA: 30
# STEPS: 3001
# STEP_SIZE: 0.006
# TIME_PER_STEP: 16.1061
# USED_LAMBDA: 1.5406
# column_1	column_2
60	362
60.012	373
60.024	361
60.036	344
60.048	368
60.06	387
60.072	403
60.084	358
60.096	343
60.108	340
60.12	394
60.132	372
60.144	357
60.156	348
60.168	360
60.18	355
60.192	380
60.204	380
60.216	357
60.228	364
60.24	370
60.252	350
60.264	361
60.276	366
60.288	406
60.3	383
60.312	363
60.324	366
60.336	342
60.348	343
60.36	382
60.372	371
60.384	340
60.396	374
60.408	349
60.42	368
60.432	383
60.444	353
60.456	346
60.468	400
60.48	368
60.492	399
60.504	388
60.516	341
60.528	385
60.54	345
60.552	403
60.564	378
60.576	359
60.588	356
60.6	388
60.612	365
60.624	359
60.636	357
60.648	351
60.66	375
60.672	391
60.684	376
60.696	370
60.708	350
60.72	373
60.732	379
60.744	361
60.756	356
60.768	363
60.78	351
60.792	361
60.804	378
60.816	352
60.828	352
60.84	337
60.852	384
60.864	349
60.876	379
60.888	369
60.9	389
60.912	365
60.924	362
60.936	358
60.948	362
60.96	369
60.972	397
60.984	412
60.996	372
61.008	401
61.02	333
61.032	366
61.044	347
61.056	368
61.068	387
61.08	380
61.092	386
61.104	401
61.116	377
61.128	384
61.14	343
61.152	364
61.164	357
61.176	397
61.188	373
61.2	399
61.212	358
61.224	363
61.236	385
61.248	372
61.26	357
61.272	389
61.284	382
61.296	386
61.308	371
61.32	420
61.332	362
61.344	385
61.356	368
61.368	402
61.38	388
61.392	397
61.404	410
61.416	401
61.428	361
61.44	377
61.452	396
61.464	389
61.476	402
61.488	376
61.5	391
61.512	374
61.524	362
61.536	405
61.548	395
61.56	362
61.572	390
61.584	365
61.596	414
61.608	413
61.62	416
61.632	417
61.644	421
61.656	395
61.668	393
61.68	429
61.692	426
61.704	477
61.716	401
61.728	426
61.74	414
61.752	428
61.764	428
61.776	401
61.788	493
61.8	428
61.812	416
61.824	435
61.836	455
61.848	460
61.86	478
61.872	463
61.884	454
61.896	449
61.908	472
61.92	454
61.932	464
61.944	485
61.956	482
61.968	496
61.98	493
61.992	514
62.004	499
62.016	516
62.028	549
62.04	573
62.052	510
62.064	569
62.076	573
62.088	611
62.1	572
62.112	601
62.124	607
62.136	610
62.148	651
62.16	633
62.172	658
62.184	727
62.196	747
62.208	751
62.22	751
62.232	787
62.244	788
62.256	904
62.268	906
62.28	944
62.292	972
62.304	1060
62.316	1094
62.328	1106
62.34	1194
62.352	1250
62.364	1319
62.376	1414
62.388	1506
62.4	1624
62.412	1697
62.424	1807
62.436	1950
62.448	1998
62.46	2132
62.472	2089
62.484	2278
62.496	2246
62.508	2273
62.52	2332
62.532	2356
62.544	2339
62.556	2288
62.568	2241
62.58	2168
62.592	2004
62.604	1880
62.616	1915
62.628	1952
62.64	1955
62.652	1773
62.664	1735
62.676	1795
62.688	1703
62.7	1687
62.712	1652
62.724	1515
62.736	1356
62.748	1347
62.76	1248
62.772	1148
62.784	1138
62.796	1069
62.808	1009
62.82	956
62.832	909
62.844	912
62.856	859
62.868	813
62.88	671
62.892	746
62.904	707
62.916	666
62.928	665
62.94	595
62.952	578
62.964	642
62.976	585
62.988	570
63	563
63.012	546
63.024	494
63.036	535
63.048	515
63.06	522
63.072	534
63.084	494
63.096	500
63.108	499
63.12	501
63.132	468
63.144	503
63.156	471
63.168	502
63.18	532
63.192	506
63.204	486
63.216	491
63.228	443
63.24	462
63.252	436
63.264	432
63.276	451
63.288	433
63.3	471
63.312	415
63.324	444
63.336	436
63.348	487
63.36	446
63.372	426
63.384	409
63.396	442
63.408	407
63.42	398
63.432	396
63.444	395
63.456	408
63.468	363
63.48	404
63.492	407
63.504	379
63.516	370
63.528	353
63.54	381
63.552	384
63.564	368
63.576	405
63.588	405
63.6	378
63.612	381
63.624	377
63.636	363
63.648	384
63.66	365
63.672	370
63.684	361
63.696	362
63.708	337
63.72	340
63.732	384
63.744	349
63.756	330
63.768	360
63.78	376
63.792	385
63.804	359
63.816	396
63.828	374
63.84	362
63.852	395
63.864	367
63.876	371
63.888	376
63.9	358
63.912	341
63.924	373
63.936	365
63.948	344
63.96	326
63.972	354
63.984	343
63.996	358
64.008	358
64.02	387
64.032	366
64.044	347
64.056	371
64.068	337
64.08	327
64.092	331
64.104	356
64.116	374
64.128	360
64.14	351
64.152	343
64.164	373
64.176	353
64.188	333
64.2	331
64.212	348
64.224	330
64.236	365
64.248	333
64.26	352
64.272	334
64.284	343
64.296	346
64.308	330
64.32	341
64.332	351
64.344	335
64.356	389
64.368	354
64.38	332
64.392	307
64.404	342
64.416	330
64.428	345
64.44	330
64.452	332
64.464	366
64.476	357
64.488	337
64.5	340
64.512	366
64.524	360
64.536	345
64.548	352
64.56	328
64.572	322
64.584	364
64.596	350
64.608	350
64.62	360
64.632	343
64.644	334
64.656	357
64.668	337
64.68	337
64.692	360
64.704	345
64.716	351
64.728	355
64.74	393
64.752	375
64.764	350
64.776	376
64.788	332
64.8	336
64.812	326
64.824	348
64.836	330
64.848	369
64.86	352
64.872	341
64.884	344
64.896	345
64.908	369
64.92	341
64.932	351
64.944	380
64.956	337
64.968	354
64.98	315
64.992	327
65.004	320
65.016	343
65.028	342
65.04	343
65.052	325
65.064	375
65.076	348
65.088	329
65.1	379
65.112	347
65.124	377
65.136	363
65.148	363
65.16	337
65.172	398
65.184	342
65.196	384
65.208	368
65.22	362
65.232	344
65.244	401
65.256	384
65.268	409
65.28	369
65.292	410
65.304	400
65.316	405
65.328	405
65.34	420
65.352	403
65.364	415
65.376	411
65.388	425
65.4	403
65.412	422
65.424	445
65.436	497
65.448	453
65.46	435
65.472	455
65.484	480
65.496	482
65.508	493
65.52	476
65.532	566
65.544	515
65.556	550
65.568	547
65.58	628
65.592	631
65.604	642
65.616	681
65.628	690
65.64	734
65.652	752
65.664	832
65.676	780
65.688	872
65.7	862
65.712	892
65.724	972
65.736	942
65.748	904
65.76	939
65.772	915
65.784	870
65.796	814
65.808	847
65.82	830
65.832	808
65.844	837
65.856	809
65.868	721
65.88	726
65.892	720
65.904	693
65.916	721
65.928	738
65.94	699
65.952	638
65.964	671
65.976	599
65.988	619
66	576
66.012	511
66.024	532
66.036	529
66.048	528
66.06	495
66.072	459
66.084	475
66.096	405
66.108	445
66.12	431
66.132	431
66.144	428
66.156	386
66.168	403
66.18	404
66.192	419
66.204	397
66.216	386
66.228	380
66.24	359
66.252	393
66.264	394
66.276	397
66.288	362
66.3	351
66.312	390
66.324	346
66.336	401
66.348	334
66.36	354
66.372	372
66.384	376
66.396	364
66.408	355
66.42	337
66.432	361
66.444	353
66.456	340
66.468	346
66.48	338
66.492	336
66.504	350
66.516	357
66.528	363
66.54	342
66.552	348
66.564	322
66.576	374
66.588	347
66.6	321
66.612	339
66.624	332
66.636	354
66.648	349
66.66	318
66.672	351
66.684	366
66.696	376
66.708	343
66.72	345
66.732	358
66.744	313
66.756	356
66.768	318
66.78	319
66.792	333
66.804	384
66.816	348
66.828	344
66.84	358
66.852	342
66.864	320
66.876	367
66.888	327
66.9	337
66.912	347
66.924	334
66.936	349
66.948	356
66.96	351
66.972	328
66.984	332
66.996	366
67.008	331
67.02	346
67.032	354
67.044	336
67.056	348
67.068	348
67.08	319
67.092	318
67.104	333
67.116	335
67.128	348
67.14	324
67.152	351
67.164	309
67.176	331
67.188	357
67.2	377
67.212	326
67.224	306
67.236	308
67.248	304
67.26	315
67.272	302
67.284	322
67.296	318
67.308	322
67.32	305
67.332	318
67.344	311
67.356	308
67.368	316
67.38	345
67.392	340
67.404	318
67.416	313
67.428	335
67.44	301
67.452	322
67.464	349
67.476	306
67.488	304
67.5	308
67.512	301
67.524	331
67.536	320
67.548	310
67.56	324
67.572	329
67.584	332
67.596	306
67.608	325
67.62	334
67.632	306
67.644	350
67.656	333
67.668	326
67.68	322
67.692	318
67.704	289
67.716	314
67.728	314
67.74	339
67.752	335
67.764	331
67.776	338
67.788	301
67.8	303
67.812	295
67.824	324
67.836	330
67.848	302
67.86	304
67.872	338
67.884	326
67.896	312
67.908	327
67.92	317
67.932	327
67.944	309
67.956	305
67.968	332
67.98	298
67.992	331
68.004	323
68.016	344
68.028	289
68.04	320
68.052	311
68.064	342
68.076	341
68.088	340
68.1	322
68.112	284
68.124	308
68.136	309
68.148	343
68.16	319
68.172	321
68.184	334
68.196	351
68.208	347
68.22	314
68.232	331
68.244	346
68.256	294
68.268	338
68.28	330
68.292	328
68.304	327
68.316	297
68.328	322
68.34	315
68.352	333
68.364	330
68.376	327
68.388	319
68.4	314
68.412	295
68.424	327
68.436	302
68.448	339
68.46	310
68.472	300
68.484	302
68.496	333
68.508	338
68.52	310
68.532	308
68.544	288
68.556	305
68.568	313
68.58	333
68.592	332
68.604	317
68.616	324
68.628	334
68.64	316
68.652	335
68.664	341
68.676	336
68.688	318
68.7	308
68.712	349
68.724	360
68.736	309
68.748	336
68.76	330
68.772	298
68.784	343
68.796	326
68.808	315
68.82	323
68.832	327
68.844	362
68.856	340
68.868	338
68.88	325
68.892	331
68.904	340
68.916	310
68.928	308
68.94	332
68.952	336
68.964	310
68.976	358
68.988	331
69	321
69.012	340
69.024	324
69.036	294
69.048	314
69.06	356
69.072	343
69.084	322
69.096	333
69.108	303
69.12	335
69.132	328
69.144	335
69.156	326
69.168	330
69.18	332
69.192	333
69.204	328
69.216	368
69.228	320
69.24	326
69.252	342
69.264	318
69.276	369
69.288	331
69.3	358
69.312	322
69.324	321
69.336	319
69.348	326
69.36	319
69.372	340
69.384	382
69.396	307
69.408	327
69.42	339
69.432	328
69.444	306
69.456	342
69.468	335
69.48	345
69.492	338
69.504	306
69.516	326
69.528	339
69.54	311
69.552	353
69.564	356
69.576	357
69.588	334
69.6	357
69.612	343
69.624	292
69.636	337
69.648	325
69.66	357
69.672	375
69.684	356
69.696	314
69.708	334
69.72	318
69.732	332
69.744	347
69.756	352
69.768	323
69.78	321
69.792	325
69.804	346
69.816	339
69.828	375
69.84	351
69.852	371
69.864	361
69.876	344
69.888	376
69.9	345
69.912	356
69.924	394
69.936	387
69.948	350
69.96	332
69.972	380
69.984	369
69.996	407
70.008	415
70.02	401
70.032	422
70.044	358
70.056	420
70.068	357
70.08	400
70.092	408
70.104	433
70.116	384
70.128	413
70.14	374
70.152	412
70.164	374
70.176	420
70.188	424
70.2	439
70.212	424
70.224	427
70.236	421
70.248	446
70.26	442
70.272	419
70.284	426
70.296	436
70.308	477
70.32	434
70.332	431
70.344	470
70.356	506
70.368	435
70.38	483
70.392	471
70.404	528
70.416	507
70.428	522
70.44	557
70.452	542
70.464	549
70.476	573
70.488	551
70.5	581
70.512	573
70.524	607
70.536	616
70.548	620
70.56	620
70.572	663
70.584	682
70.596	715
70.608	733
70.62	734
70.632	814
70.644	789
70.656	762
70.668	884
70.68	893
70.692	942
70.704	984
70.716	1000
70.728	1040
70.74	1116
70.752	1199
70.764	1221
70.776	1277
70.788	1347
70.8	1518
70.812	1559
70.824	1611
70.836	1682
70.848	1827
70.86	1904
70.872	1963
70.884	2014
70.896	2196
70.908	2260
70.92	2323
70.932	2521
70.944	2401
70.956	2482
70.968	2446
70.98	2336
70.992	2402
71.004	2254
71.016	2134
71.028	2094
71.04	1999
71.052	1953
71.064	1882
71.076	1820
71.088	1809
71.1	1731
71.112	1739
71.124	1664
71.136	1610
71.148	1633
71.16	1608
71.172	1579
71.184	1521
71.196	1413
71.208	1321
71.22	1222
71.232	1192
71.244	1155
71.256	1086
71.268	971
71.28	973
71.292	886
71.304	789
71.316	769
71.328	782
71.34	751
71.352	657
71.364	698
71.376	655
71.388	636
71.4	587
71.412	595
71.424	591
71.436	575
71.448	520
71.46	522
71.472	566
71.484	505
71.496	501
71.508	512
71.52	447
71.532	458
71.544	453
71.556	446
71.568	464
71.58	467
71.592	419
71.604	446
71.616	421
71.628	434
71.64	433
71.652	404
71.664	394
71.676	391
71.688	417
71.7	390
71.712	373
71.724	377
71.736	380
71.748	376
71.76	367
71.772	373
71.784	367
71.796	416
71.808	392
71.82	346
71.832	393
71.844	373
71.856	367
71.868	345
71.88	327
71.892	367
71.904	358
71.916	332
71.928	350
71.94	365
71.952	325
71.964	322
71.976	360
71.988	346
72	303
72.012	322
72.024	334
72.036	375
72.048	353
72.06	342
72.072	352
72.084	326
72.096	351
72.108	386
72.12	303
72.132	331
72.144	317
72.156	317
72.168	361
72.18	315
72.192	323
72.204	313
72.216	380
72.228	306
72.24	321
72.252	365
72.264	310
72.276	324
72.288	329
72.3	322
72.312	311
72.324	313
72.336	311
72.348	359
72.36	337
72.372	316
72.384	310
72.396	318
72.408	331
72.42	347
72.432	352
72.444	327
72.456	323
72.468	314
72.48	315
72.492	333
72.504	315
72.516	326
72.528	311
72.54	303
72.552	336
72.564	343
72.576	291
72.588	341
72.6	311
72.612	344
72.624	345
72.636	340
72.648	318
72.66	325
72.672	304
72.684	340
72.696	305
72.708	319
72.72	336
72.732	297
72.744	318
72.756	286
72.768	307
72.78	305
72.792	304
72.804	299
72.816	323
72.828	329
72.84	291
72.852	336
72.864	288
72.876	305
72.888	324
72.9	319
72.912	288
72.924	333
72.936	302
72.948	289
72.96	316
72.972	328
72.984	325
72.996	312
73.008	324
73.02	304
73.032	318
73.044	330
73.056	323
73.068	310
73.08	310
73.092	320
73.104	354
73.116	312
73.128	313
73.14	326
73.152	327
73.164	295
73.176	335
73.188	325
73.2	318
73.212	310
73.224	299
73.236	292
73.248	328
73.26	328
73.272	331
73.284	312
73.296	312
73.308	303
73.32	313
73.332	340
73.344	359
73.356	327
73.368	303
73.38	293
73.392	301
73.404	309
73.416	310
73.428	295
73.44	333
73.452	302
73.464	356
73.476	310
73.488	335
73.5	307
73.512	304
73.524	334
73.536	339
73.548	323
73.56	319
73.572	328
73.584	341
73.596	346
73.608	350
73.62	324
73.632	319
73.644	330
73.656	330
73.668	366
73.68	340
73.692	325
73.704	360
73.716	375
73.728	345
73.74	365
73.752	363
73.764	362
73.776	363
73.788	367
73.8	370
73.812	353
73.824	402
73.836	372
73.848	429
73.86	419
73.872	444
73.884	425
73.896	443
73.908	436
73.92	443
73.932	439
73.944	418
73.956	451
73.968	460
73.98	454
73.992	479
74.004	439
74.016	471
74.028	424
74.04	408
74.052	442
74.064	412
74.076	428
74.088	412
74.1	441
74.112	435
74.124	445
74.136	411
74.148	414
74.16	387
74.172	369
74.184	443
74.196	380
74.208	406
74.22	374
74.232	378
74.244	394
74.256	359
74.268	361
74.28	399
74.292	386
74.304	348
74.316	374
74.328	366
74.34	336
74.352	381
74.364	358
74.376	352
74.388	321
74.4	357
74.412	376
74.424	312
74.436	330
74.448	341
74.46	314
74.472	329
74.484	353
74.496	338
74.508	316
74.52	338
74.532	314
74.544	320
74.556	296
74.568	311
74.58	300
74.592	314
74.604	288
74.616	332
74.628	333
74.64	354
74.652	342
74.664	309
74.676	300
74.688	341
74.7	310
74.712	284
74.724	314
74.736	316
74.748	338
74.76	341
74.772	372
74.784	335
74.796	350
74.808	304
74.82	356
74.832	329
74.844	268
74.856	343
74.868	373
74.88	349
74.892	320
74.904	353
74.916	348
74.928	358
74.94	369
74.952	368
74.964	348
74.976	346
74.988	395
75	369
75.012	374
75.024	370
75.036	343
75.048	356
75.06	353
75.072	364
75.084	300
75.096	363
75.108	317
75.12	347
75.132	349
75.144	347
75.156	337
75.168	312
75.18	326
75.192	323
75.204	332
75.216	335
75.228	323
75.24	319
75.252	343
75.264	336
75.276	299
75.288	328
75.3	313
75.312	334
75.324	318
75.336	318
75.348	356
75.36	320
75.372	295
75.384	292
75.396	334
75.408	324
75.42	320
75.432	303
75.444	311
75.456	285
75.468	305
75.474	283