File: XRD/BrukerRAW/PDC_02232018_1_LDFC_MKS_-Ba2CaWO6-2_ROOM TEMP_12HR.xy
60.00000 362.000
60.01800 353.000
60.03600 344.000
60.05400 334.000
60.07200 403.000
60.09000 356.000
60.10800 340.000
60.12600 389.000
60.14400 357.000
60.16200 374.000
60.18000 355.000
60.19800 364.000
60.21600 357.000
60.23400 362.000
60.25200 350.000
60.27000 329.000
60.28800 406.000
60.30600 353.000
60.32400 366.000
60.34200 334.000
60.36000 382.000
60.37800 362.000
60.39600 374.000
60.41400 359.000
60.43200 383.000
60.45000 351.000
60.46800 400.000
60.48600 357.000
60.50400 388.000
60.52200 338.000
60.54000 345.000
60.55800 377.000
60.57600 359.000
60.59400 355.000
60.61200 365.000
60.63000 388.000
60.64800 351.000
60.66600 379.000
60.68400 376.000
60.70200 355.000
60.72000 373.000
60.73800 350.000
60.75600 356.000
60.77400 349.000
60.79200 361.000
60.81000 366.000
60.82800 352.000
60.84600 367.000
60.86400 349.000
60.88200 387.000
60.90000 389.000
60.91800 352.000
60.93600 358.000
60.95400 366.000
60.97200 397.000
60.99000 389.000
61.00800 401.000
61.02600 372.000
61.04400 347.000
61.06200 379.000
61.08000 380.000
61.09800 344.000
61.11600 377.000
61.13400 365.000
61.15200 364.000
61.17000 372.000
61.18800 373.000
61.20600 383.000
61.22400 363.000
61.24200 403.000
61.26000 357.000
61.27800 384.000
61.29600 386.000
61.31400 382.000
61.33200 362.000
61.35000 388.000
61.36800 402.000
61.38600 395.000
61.40400 410.000
61.42200 404.000
61.44000 377.000
61.45800 388.000
61.47600 402.000
61.49400 388.000
61.51200 374.000
61.53000 434.000
61.54800 395.000
61.56600 385.000
61.58400 365.000
61.60200 409.000
61.62000 416.000
61.63800 406.000
61.65600 395.000
61.67400 445.000
61.69200 426.000
61.71000 384.000
61.72800 426.000
61.74600 377.000
61.76400 428.000
61.78200 436.000
61.80000 428.000
61.81800 405.000
61.83600 455.000
61.85400 456.000
61.87200 463.000
61.89000 453.000
61.90800 472.000
61.92600 509.000
61.94400 485.000
61.96200 476.000
61.98000 493.000
61.99800 551.000
62.01600 516.000
62.03400 565.000
62.05200 510.000
62.07000 552.000
62.08800 611.000
62.10600 618.000
62.12400 607.000
62.14200 633.000
62.16000 633.000
62.17800 646.000
62.19600 747.000
62.21400 775.000
62.23200 787.000
62.25000 864.000
62.26800 906.000
62.28600 971.000
62.30400 1060.000
62.32200 1097.000
62.34000 1194.000
62.35800 1322.000
62.37600 1414.000
62.39400 1519.000
62.41200 1697.000
62.43000 1768.000
62.44800 1998.000
62.46600 2276.000
62.48400 2278.000
62.50200 2318.000
62.52000 2332.000
62.53800 2295.000
62.55600 2288.000
62.57400 2251.000
62.59200 2004.000
62.61000 1919.000
62.62800 1952.000
62.64600 1895.000
62.66400 1735.000
62.68200 1700.000
62.70000 1687.000
62.71800 1482.000
62.73600 1356.000
62.75400 1282.000
62.77200 1148.000
62.79000 1155.000
62.80800 1009.000
62.82600 914.000
62.84400 912.000
62.86200 791.000
62.88000 671.000
62.89800 705.000
62.91600 666.000
62.93400 621.000
62.95200 578.000
62.97000 597.000
62.98800 570.000
63.00600 549.000
63.02400 494.000
63.04200 541.000
63.06000 522.000
63.07800 501.000
63.09600 500.000
63.11400 485.000
63.13200 468.000
63.15000 500.000
63.16800 502.000
63.18600 493.000
63.20400 486.000
63.22200 485.000
63.24000 462.000
63.25800 490.000
63.27600 451.000
63.29400 435.000
63.31200 415.000
63.33000 458.000
63.34800 487.000
63.36600 468.000
63.38400 409.000
63.40200 429.000
63.42000 398.000
63.43800 412.000
63.45600 408.000
63.47400 382.000
63.49200 407.000
63.51000 370.000
63.52800 353.000
63.54600 381.000
63.56400 368.000
63.58200 373.000
63.60000 378.000
63.61800 399.000
63.63600 363.000
63.65400 360.000
63.67200 370.000
63.69000 363.000
63.70800 337.000
63.72600 365.000
63.74400 349.000
63.76200 382.000
63.78000 376.000
63.79800 366.000
63.81600 396.000
63.83400 393.000
63.85200 395.000
63.87000 367.000
63.88800 376.000
63.90600 380.000
63.92400 373.000
63.94200 353.000
63.96000 326.000
63.97800 333.000
63.99600 358.000
64.01400 350.000
64.03200 366.000
64.05000 347.000
64.06800 337.000
64.08600 338.000
64.10400 356.000
64.12200 366.000
64.14000 351.000
64.15800 347.000
64.17600 353.000
64.19400 356.000
64.21200 348.000
64.23000 353.000
64.24800 333.000
64.26600 337.000
64.28400 343.000
64.30200 349.000
64.32000 341.000
64.33800 359.000
64.35600 389.000
64.37400 320.000
64.39200 307.000
64.41000 332.000
64.42800 345.000
64.44600 323.000
64.46400 366.000
64.48200 372.000
64.50000 340.000
64.51800 330.000
64.53600 345.000
64.55400 334.000
64.57200 322.000
64.59000 382.000
64.60800 350.000
64.62600 367.000
64.64400 334.000
64.66200 341.000
64.68000 337.000
64.69800 343.000
64.71600 351.000
64.73400 336.000
64.75200 375.000
64.77000 354.000
64.78800 332.000
64.80600 324.000
64.82400 348.000
64.84200 362.000
64.86000 352.000
64.87800 360.000
64.89600 345.000
64.91400 370.000
64.93200 351.000
64.95000 365.000
64.96800 354.000
64.98600 361.000
65.00400 320.000
65.02200 394.000
65.04000 343.000
65.05800 353.000
65.07600 348.000
65.09400 372.000
65.11200 347.000
65.13000 350.000
65.14800 363.000
65.16600 370.000
65.18400 342.000
65.20200 343.000
65.22000 362.000
65.23800 407.000
65.25600 384.000
65.27400 373.000
65.29200 410.000
65.31000 415.000
65.32800 405.000
65.34600 395.000
65.36400 415.000
65.38200 431.000
65.40000 403.000
65.41800 445.000
65.43600 497.000
65.45400 457.000
65.47200 455.000
65.49000 466.000
65.50800 493.000
65.52600 459.000
65.54400 515.000
65.56200 587.000
65.58000 628.000
65.59800 647.000
65.61600 681.000
65.63400 737.000
65.65200 752.000
65.67000 845.000
65.68800 872.000
65.70600 874.000
65.72400 972.000
65.74200 946.000
65.76000 939.000
65.77800 896.000
65.79600 814.000
65.81400 835.000
65.83200 808.000
65.85000 779.000
65.86800 721.000
65.88600 759.000
65.90400 693.000
65.92200 705.000
65.94000 699.000
65.95800 670.000
65.97600 599.000
65.99400 596.000
66.01200 511.000
66.03000 565.000
66.04800 528.000
66.06600 452.000
66.08400 475.000
66.10200 492.000
66.12000 431.000
66.13800 443.000
66.15600 386.000
66.17400 387.000
66.19200 419.000
66.21000 367.000
66.22800 380.000
66.24600 402.000
66.26400 394.000
66.28200 391.000
66.30000 351.000
66.31800 367.000
66.33600 401.000
66.35400 379.000
66.37200 372.000
66.39000 360.000
66.40800 355.000
66.42600 367.000
66.44400 353.000
66.46200 336.000
66.48000 338.000
66.49800 351.000
66.51600 357.000
66.53400 391.000
66.55200 348.000
66.57000 378.000
66.58800 347.000
66.60600 328.000
66.62400 332.000
66.64200 343.000
66.66000 318.000
66.67800 344.000
66.69600 376.000
66.71400 338.000
66.73200 358.000
66.75000 308.000
66.76800 318.000
66.78600 353.000
66.80400 384.000
66.82200 332.000
66.84000 358.000
66.85800 340.000
66.87600 367.000
66.89400 360.000
66.91200 347.000
66.93000 341.000
66.94800 356.000
66.96600 276.000
66.98400 332.000
67.00200 333.000
67.02000 346.000
67.03800 358.000
67.05600 348.000
67.07400 346.000
67.09200 318.000
67.11000 318.000
67.12800 348.000
67.14600 322.000
67.16400 309.000
67.18200 319.000
67.20000 377.000
67.21800 318.000
67.23600 308.000
67.25400 310.000
67.27200 302.000
67.29000 320.000
67.30800 322.000
67.32600 327.000
67.34400 311.000
67.36200 340.000
67.38000 345.000
67.39800 335.000
67.41600 313.000
67.43400 350.000
67.45200 322.000
67.47000 314.000
67.48800 304.000
67.50600 280.000
67.52400 331.000
67.54200 334.000
67.56000 324.000
67.57800 331.000
67.59600 306.000
67.61400 320.000
67.63200 306.000
67.65000 313.000
67.66800 326.000
67.68600 318.000
67.70400 289.000
67.72200 304.000
67.74000 339.000
67.75800 276.000
67.77600 338.000
67.79400 321.000
67.81200 295.000
67.83000 311.000
67.84800 302.000
67.86600 290.000
67.88400 326.000
67.90200 317.000
67.92000 317.000
67.93800 306.000
67.95600 305.000
67.97400 314.000
67.99200 331.000
68.01000 316.000
68.02800 289.000
68.04600 315.000
68.06400 342.000
68.08200 340.000
68.10000 322.000
68.11800 336.000
68.13600 309.000
68.15400 304.000
68.17200 321.000
68.19000 314.000
68.20800 347.000
68.22600 317.000
68.24400 346.000
68.26200 329.000
68.28000 330.000
68.29800 345.000
68.31600 297.000
68.33400 346.000
68.35200 333.000
68.37000 343.000
68.38800 319.000
68.40600 343.000
68.42400 327.000
68.44200 309.000
68.46000 310.000
68.47800 309.000
68.49600 333.000
68.51400 300.000
68.53200 308.000
68.55000 352.000
68.56800 313.000
68.58600 329.000
68.60400 317.000
68.62200 303.000
68.64000 316.000
68.65800 329.000
68.67600 336.000
68.69400 307.000
68.71200 349.000
68.73000 331.000
68.74800 336.000
68.76600 319.000
68.78400 343.000
68.80200 329.000
68.82000 323.000
68.83800 306.000
68.85600 340.000
68.87400 340.000
68.89200 331.000
68.91000 310.000
68.92800 308.000
68.94600 354.000
68.96400 310.000
68.98200 319.000
69.00000 321.000
69.01800 323.000
69.03600 294.000
69.05400 368.000
69.07200 343.000
69.09000 332.000
69.10800 303.000
69.12600 354.000
69.14400 335.000
69.16200 294.000
69.18000 332.000
69.19800 324.000
69.21600 368.000
69.23400 349.000
69.25200 342.000
69.27000 342.000
69.28800 331.000
69.30600 369.000
69.32400 321.000
69.34200 289.000
69.36000 319.000
69.37800 353.000
69.39600 307.000
69.41400 346.000
69.43200 328.000
69.45000 338.000
69.46800 335.000
69.48600 322.000
69.50400 306.000
69.52200 318.000
69.54000 311.000
69.55800 328.000
69.57600 357.000
69.59400 333.000
69.61200 343.000
69.63000 351.000
69.64800 325.000
69.66600 369.000
69.68400 356.000
69.70200 375.000
69.72000 318.000
69.73800 337.000
69.75600 352.000
69.77400 371.000
69.79200 325.000
69.81000 345.000
69.82800 375.000
69.84600 343.000
69.86400 361.000
69.88200 368.000
69.90000 345.000
69.91800 366.000
69.93600 387.000
69.95400 408.000
69.97200 380.000
69.99000 347.000
70.00800 415.000
70.02600 374.000
70.04400 358.000
70.06200 416.000
70.08000 400.000
70.09800 382.000
70.11600 384.000
70.13400 406.000
70.15200 412.000
70.17000 400.000
70.18800 424.000
70.20600 424.000
70.22400 427.000
70.24200 431.000
70.26000 442.000
70.27800 490.000
70.29600 436.000
70.31400 431.000
70.33200 431.000
70.35000 452.000
70.36800 435.000
70.38600 487.000
70.40400 528.000
70.42200 479.000
70.44000 557.000
70.45800 503.000
70.47600 573.000
70.49400 559.000
70.51200 573.000
70.53000 627.000
70.54800 620.000
70.56600 690.000
70.58400 682.000
70.60200 682.000
70.62000 734.000
70.63800 747.000
70.65600 762.000
70.67400 862.000
70.69200 942.000
70.71000 1004.000
70.72800 1040.000
70.74600 1163.000
70.76400 1221.000
70.78200 1306.000
70.80000 1518.000
70.81800 1579.000
70.83600 1682.000
70.85400 1851.000
70.87200 1963.000
70.89000 2068.000
70.90800 2260.000
70.92600 2375.000
70.94400 2401.000
70.96200 2539.000
70.98000 2336.000
70.99800 2310.000
71.01600 2134.000
71.03400 2028.000
71.05200 1953.000
71.07000 1858.000
71.08800 1809.000
71.10600 1677.000
71.12400 1664.000
71.14200 1699.000
71.16000 1608.000
71.17800 1560.000
71.19600 1413.000
71.21400 1223.000
71.23200 1192.000
71.25000 1071.000
71.26800 971.000
71.28600 929.000
71.30400 789.000
71.32200 801.000
71.34000 751.000
71.35800 692.000
71.37600 655.000
71.39400 614.000
71.41200 595.000
71.43000 546.000
71.44800 520.000
71.46600 554.000
71.48400 505.000
71.50200 517.000
71.52000 447.000
71.53800 471.000
71.55600 446.000
71.57400 432.000
71.59200 419.000
71.61000 383.000
71.62800 434.000
71.64600 393.000
71.66400 394.000
71.68200 400.000
71.70000 390.000
71.71800 365.000
71.73600 380.000
71.75400 350.000
71.77200 373.000
71.79000 351.000
71.80800 392.000
71.82600 379.000
71.84400 373.000
71.86200 402.000
71.88000 327.000
71.89800 360.000
71.91600 332.000
71.93400 368.000
71.95200 325.000
71.97000 339.000
71.98800 346.000
72.00600 356.000
72.02400 334.000
72.04200 335.000
72.06000 342.000
72.07800 306.000
72.09600 351.000
72.11400 369.000
72.13200 331.000
72.15000 340.000
72.16800 361.000
72.18600 322.000
72.20400 313.000
72.22200 336.000
72.24000 321.000
72.25800 323.000
72.27600 324.000
72.29400 346.000
72.31200 311.000
72.33000 331.000
72.34800 359.000
72.36600 285.000
72.38400 310.000
72.40200 330.000
72.42000 347.000
72.43800 339.000
72.45600 323.000
72.47400 328.000
72.49200 333.000
72.51000 330.000
72.52800 311.000
72.54600 333.000
72.56400 343.000
72.58200 374.000
72.60000 311.000
72.61800 314.000
72.63600 340.000
72.65400 307.000
72.67200 304.000
72.69000 326.000
72.70800 319.000
72.72600 330.000
72.74400 318.000
72.76200 320.000
72.78000 305.000
72.79800 321.000
72.81600 323.000
72.83400 283.000
72.85200 336.000
72.87000 361.000
72.88800 324.000
72.90600 306.000
72.92400 333.000
72.94200 315.000
72.96000 316.000
72.97800 293.000
72.99600 312.000
73.01400 303.000
73.03200 318.000
73.05000 317.000
73.06800 310.000
73.08600 306.000
73.10400 354.000
73.12200 326.000
73.14000 326.000
73.15800 311.000
73.17600 335.000
73.19400 329.000
73.21200 310.000
73.23000 323.000
73.24800 328.000
73.26600 314.000
73.28400 312.000
73.30200 319.000
73.32000 313.000
73.33800 349.000
73.35600 327.000
73.37400 332.000
73.39200 301.000
73.41000 324.000
73.42800 295.000
73.44600 316.000
73.46400 356.000
73.48200 292.000
73.50000 307.000
73.51800 344.000
73.53600 339.000
73.55400 338.000
73.57200 328.000
73.59000 300.000
73.60800 350.000
73.62600 335.000
73.64400 330.000
73.66200 314.000
73.68000 340.000
73.69800 347.000
73.71600 375.000
73.73400 376.000
73.75200 363.000
73.77000 372.000
73.78800 367.000
73.80600 414.000
73.82400 402.000
73.84200 393.000
73.86000 419.000
73.87800 456.000
73.89600 443.000
73.91400 481.000
73.93200 439.000
73.95000 433.000
73.96800 460.000
73.98600 422.000
74.00400 439.000
74.02200 433.000
74.04000 408.000
74.05800 429.000
74.07600 428.000
74.09400 406.000
74.11200 435.000
74.13000 400.000
74.14800 414.000
74.16600 402.000
74.18400 443.000
74.20200 384.000
74.22000 374.000
74.23800 406.000
74.25600 359.000
74.27400 361.000
74.29200 386.000
74.31000 326.000
74.32800 366.000
74.34600 349.000
74.36400 358.000
74.38200 347.000
74.40000 357.000
74.41800 330.000
74.43600 330.000
74.45400 331.000
74.47200 329.000
74.49000 311.000
74.50800 316.000
74.52600 333.000
74.54400 320.000
74.56200 292.000
74.58000 300.000
74.59800 279.000
74.61600 332.000
74.63400 327.000
74.65200 342.000
74.67000 318.000
74.68800 341.000
74.70600 312.000
74.72400 314.000
74.74200 307.000
74.76000 341.000
74.77800 298.000
74.79600 350.000
74.81400 344.000
74.83200 329.000
74.85000 335.000
74.86800 373.000
74.88600 331.000
74.90400 353.000
74.92200 351.000
74.94000 369.000
74.95800 352.000
74.97600 346.000
74.99400 343.000
75.01200 374.000
75.03000 356.000
75.04800 356.000
75.06600 347.000
75.08400 300.000
75.10200 339.000
75.12000 347.000
75.13800 286.000
75.15600 337.000
75.17400 311.000
75.19200 323.000
75.21000 315.000
75.22800 323.000
75.24600 309.000
75.26400 336.000
75.28200 337.000
75.30000 313.000
75.31800 329.000
75.33600 318.000
75.35400 311.000
75.37200 295.000
75.39000 307.000
75.40800 324.000
75.42600 312.000
75.44400 311.000
75.46200 318.000
75.48000 315.000
75.49800 321.000
75.51600 294.000
75.53400 322.000
75.55200 303.000
75.57000 299.000
75.58800 296.000
75.60600 335.000
75.62400 303.000
75.64200 323.000
75.66000 306.000
75.67800 332.000
75.69600 287.000
75.71400 274.000
75.73200 310.000
75.75000 307.000
75.76800 315.000
75.78600 310.000
75.80400 297.000
75.82200 321.000
75.84000 297.000
75.85800 314.000
75.87600 322.000
75.89400 303.000
75.91200 291.000
75.93000 321.000
75.94800 305.000
75.96600 299.000
75.98400 293.000
76.00200 295.000
76.02000 336.000
76.03800 314.000
76.05600 267.000
76.07400 276.000
76.09200 283.000
76.11000 302.000
76.12800 341.000
76.14600 286.000
76.16400 319.000
76.18200 299.000
76.20000 343.000
76.21800 322.000
76.23600 300.000
76.25400 311.000
76.27200 328.000
76.29000 298.000
76.30800 299.000
76.32600 292.000
76.34400 282.000
76.36200 291.000
76.38000 283.000
76.39800 305.000
76.41600 302.000
76.43400 321.000
76.45200 297.000
76.47000 337.000
76.48800 318.000
76.50600 342.000
76.52400 313.000
76.54200 318.000
76.56000 321.000
76.57800 313.000
76.59600 297.000
76.61400 336.000
76.63200 318.000
76.65000 333.000
76.66800 329.000
76.68600 351.000
76.70400 315.000
76.72200 358.000
76.74000 328.000
76.75800 307.000
76.77600 334.000
76.79400 312.000
76.81200 324.000
76.83000 344.000
76.84800 292.000
76.86600 345.000
76.88400 316.000
76.90200 288.000
76.92000 333.000
76.93800 312.000
76.95600 315.000
76.97400 296.000
76.99200 286.000
77.01000 320.000
77.02800 320.000
77.04600 306.000
77.06400 299.000
77.08200 282.000
77.10000 309.000
77.11800 302.000
77.13600 278.000
77.15400 328.000
77.17200 299.000
77.19000 318.000
77.20800 298.000
77.22600 293.000
77.24400 318.000
77.26200 289.000
77.28000 286.000
77.29800 273.000
77.31600 274.000
77.33400 272.000
77.35200 323.000
77.37000 305.000
77.38800 322.000
77.40600 322.000
77.42400 327.000
77.44200 289.000
77.46000 287.000
77.47800 320.000
77.49600 282.000
77.51400 291.000
77.53200 313.000
77.55000 327.000
77.56800 271.000
77.58600 303.000
77.60400 292.000
77.62200 301.000
77.64000 291.000
77.65800 259.000
77.67600 303.000
77.69400 285.000
77.71200 300.000
77.73000 304.000
77.74800 324.000
77.76600 287.000
77.78400 315.000
77.80200 322.000
77.82000 302.000
77.83800 262.000
77.85600 289.000
77.87400 312.000
77.89200 314.000
77.91000 301.000
77.92800 290.000
77.94600 301.000
77.96400 305.000
77.98200 271.000
78.00000 312.000